File: 5_Final_report_codes/final_model/data/MCC_raw.csv
Adhesive-1-1,,,Adhesive-2-1,,,Adhesive-3-1,,,Adhesive-4-1,,,Adhesive-5-1,,,Adhesive-6-1,,,Adhesive-7-1,,,Adhesive-8-1,,,Adhesive-9-1,,,Adhesive-10-1,,,Adhesive-11-1,,,Adhesive-12-1,,,Adhesive-13-1,,,Adhesive-14-1,,,Adhesive-15-1,,,Adhesive-16-1,,,Adhesive-17-1,,,Adhesive-18-1,,,Adhesive-19-1,,,Adhesive 20-1,,,Adhesive 21-1,,,Adhesive-22-1,,,Fiber-FR-1,,,Fiber-FR-2,,,Fiber-FR-3,,,Fiber-FR-4,,,Fiber-FR-5 ,,,Fiber-FR-6,,,Fiber-FR-7 ,,,Fiber-FR-8,,,Fiber-FR-9,,,Fiber-FR-10,,,Fiber-FR-11,,,Fiber-FR-12,,,Fiber-FR-13,,,Fiber-FR-14,,,Fiber-FR-15,,,Fiber-FR-16,,,Fiber-17,,,Fiber-18,,,Fiber-19,,
Temperature (C),HRR (W/g),Heating Rate (C/s),Temperature (C),HRR (W/g),Heating Rate (C/s),Temperature (C),HRR (W/g),Heating Rate (C/s),Temperature (C),HRR (W/g),Heating Rate (C/s),Temperature (C),HRR (W/g),Heating Rate (C/s),Temperature (C),HRR (W/g),Heating Rate (C/s),Temperature (C),HRR (W/g),Heating Rate (C/s),Temperature (C),HRR (W/g),Heating Rate (C/s),Temperature (C),HRR (W/g),Heating Rate (C/s),Temperature (C),HRR (W/g),Heating Rate (C/s),Temperature (C),HRR (W/g),Heating Rate (C/s),Temperature (C),HRR (W/g),Heating Rate (C/s),Temperature (C),HRR (W/g),Heating Rate (C/s),Temperature (C),HRR (W/g),Heating Rate (C/s),Temperature (C),HRR (W/g),Heating Rate (C/s),Temperature (C),HRR (W/g),Heating Rate (C/s),Temperature (C),HRR (W/g),Heating Rate (C/s),Temperature (C),HRR (W/g),Heating Rate (C/s),Temperature (C),HRR (W/g),Heating Rate (C/s),Temperature (C),HRR (W/g),Heating Rate (C/s),Temperature (C),HRR (W/g),Heating Rate (C/s),Temperature (C),HRR (W/g),Heating Rate (C/s),Temperature (C),HRR (W/g),Heating Rate (C/s),Temperature (C),HRR (W/g),Heating Rate (C/s),Temperature (C),HRR (W/g),Heating Rate (C/s),Temperature (C),HRR (W/g),Heating Rate (C/s),Temperature (C),HRR (W/g),Heating Rate (C/s),Temperature (C),HRR (W/g),Heating Rate (C/s),Temperature (C),HRR (W/g),Heating Rate (C/s),Temperature (C),HRR (W/g),Heating Rate (C/s),Temperature (C),HRR (W/g),Heating Rate (C/s),Temperature (C),HRR (W/g),Heating Rate (C/s),Temperature (C),HRR (W/g),Heating Rate (C/s),Temperature (C),HRR (W/g),Heating Rate (C/s),Temperature (C),HRR (W/g),Heating Rate (C/s),Temperature (C),HRR (W/g),Heating Rate (C/s),Temperature (C),HRR (W/g),Heating Rate (C/s),Temperature (C),HRR (W/g),Heating Rate (C/s),Temperature (C),HRR (W/g),Heating Rate (C/s),Temperature (C),HRR (W/g),Heating Rate (C/s),Temperature (C),HRR (W/g),Heating Rate (C/s)
73.744,4.57,0.084,74.63,5.286,0.067,74.621,4.898,0.061,74.539,9.743,-0.061,74.815,1.81,0.06,75.161,-3.166,0.07,75.574,-0.01,-0.01,74.589,2.433,0.069,75.411,6.165,0,75.404,7.255,-0.03,74.661,4.545,0.101,75.317,-0.351,0.024,74.712,2.604,0.056,75.496,-1.244,0.017,74.752,3.697,0.04,75.333,-3.103,0.009,74.903,2.29,0.029,74.633,2.516,0.045,74.778,0.191,0.048,75.272,6.343,-0.071,74.973,4.62,0.403,74.028,6.484,0.028,75.321,7.514,0.024,75.349,4.374,-0.022,75.298,4.888,-0.021,75.383,4.706,-0.025,75.114,5.11,-0.063,75.343,2.057,-0.011,75.377,5.171,-0.048,73.757,9.509,-0.09,75.288,5.494,-0.039,74.736,7.92,-0.05,75.393,0.649,0.052,74.683,3.965,0.036,73.755,5.755,-0.001,74.602,4.644,0.029,74.629,4.341,0.05,75.068,6.004,-0.034,73.866,4.474,0.016,74.566,5.061,0.04,73.599,5.051,-0.007
75.946,11.871,0.316,77.044,12.569,0.367,77.107,10.905,0.358,76.026,16.639,0.243,77.082,10.258,0.295,77.24,10.397,0.285,77.285,14.436,0.254,76.893,12.115,0.345,77.185,22.03,0.3,76.727,21.813,0.242,77.086,10.404,0.361,77.477,14.48,0.345,76.875,11.332,0.286,77.118,12.481,0.292,76.976,13.043,0.32,77.243,12.819,0.285,77.116,12.468,0.306,76.855,13.496,0.309,77.039,8.996,0.338,76.354,18.458,0.25,80.818,9.764,0.609,76.432,12.972,0.355,76.381,22.373,0.188,76.059,12.42,0.188,75.971,14.27,0.18,76.073,14.136,0.192,75.809,15.421,0.158,76.635,9.524,0.188,75.984,12.875,0.194,74.097,15.187,0.148,75.94,14.718,0.137,75.612,15.208,0.186,76.79,10.523,0.248,76.561,8.812,0.262,74.529,10.862,0.163,76.925,10.318,0.32,76.553,9.171,0.276,76.218,16.842,0.252,76.04,9.643,0.34,76.87,11.016,0.34,76.116,9.764,0.358
81.406,11.084,0.491,82.579,13.199,0.498,82.717,10.732,0.547,80.844,16.122,0.437,82.059,9.227,0.5,82.15,10.726,0.451,81.813,14.22,0.463,82.097,11.214,0.542,82.216,22.231,0.494,81.424,21.775,0.512,82.703,9.438,0.528,82.683,13.912,0.475,81.946,10.713,0.468,81.705,11.782,0.456,82.102,12.555,0.512,81.964,12.291,0.432,82.3,11.053,0.518,81.953,11.666,0.5,82.234,7.198,0.56,80.696,18.183,0.456,88.885,8.624,0.737,81.897,11.905,0.552,79.951,22.016,0.351,79.3,12.078,0.342,79.269,14.025,0.34,79.333,13.675,0.387,79.54,15.005,0.399,80.403,9.319,0.385,79.233,12.5,0.374,77.238,14.422,0.376,79.22,14.309,0.4,79.045,14.454,0.36,80.594,10.182,0.407,80.858,8.197,0.431,77.929,9.901,0.334,82.348,9.771,0.496,80.884,8.252,0.426,80.7,16.118,0.471,81.321,8.84,0.544,82.266,10.462,0.543,81.599,9.792,0.488
88.626,10.509,0.656,90,16.412,0.696,90.112,10.214,0.658,87.614,15.601,0.586,88.932,8.985,0.665,88.914,9.012,0.631,88.208,13.379,0.585,89.064,11.345,0.65,89.328,21.199,0.66,88.124,20.779,0.673,90.106,9.517,0.652,89.973,13.313,0.711,88.774,9.719,0.635,88.179,12.273,0.568,89.018,12.725,0.617,88.607,11.766,0.644,89.372,11.776,0.67,88.832,9.31,0.633,89.163,6.296,0.608,87.129,17.595,0.571,98.132,8.285,0.793,89.143,10.877,0.632,85.251,21.485,0.499,84.355,11.481,0.45,84.317,12.946,0.486,84.372,12.832,0.484,85.353,14.343,0.557,85.816,8.836,0.482,84.35,11.722,0.484,82.153,13.963,0.422,84.257,13.489,0.465,84.259,13.705,0.541,86.067,8.804,0.472,86.75,7.338,0.516,83.118,9.052,0.481,89.646,9.085,0.638,86.742,7.819,0.506,87.319,15.386,0.598,88.495,8.629,0.664,89.42,9.743,0.628,88.896,9.141,0.663
97.002,10.142,0.723,98.613,20.808,0.765,98.803,9.782,0.778,95.693,15.266,0.705,96.948,8.075,0.662,96.956,8.821,0.677,95.977,14.626,0.698,97.185,10.93,0.687,97.674,20.571,0.728,96.148,20.705,0.743,98.68,8.891,0.787,98.433,12.246,0.757,96.895,8.989,0.711,96.038,11.342,0.718,97.162,11.814,0.748,96.494,11.07,0.657,97.59,11.382,0.712,96.972,10.349,0.627,97.477,6.568,0.795,94.859,16.529,0.709,107.998,8.167,0.825,97.651,10.484,0.758,91.757,20.413,0.588,90.678,11.017,0.592,90.614,12.387,0.554,90.691,12.29,0.584,92.528,13.799,0.621,92.468,8.515,0.591,90.76,11.458,0.575,88.382,13.375,0.565,90.6,12.97,0.614,90.672,13.258,0.569,92.796,8.691,0.567,93.789,6.696,0.609,89.563,8.639,0.571,98.136,8.354,0.716,93.832,7.055,0.645,95.267,14.616,0.696,96.822,7.895,0.747,97.851,8.771,0.743,97.397,8.857,0.76
106.152,9.611,0.787,107.891,25.263,0.778,108.125,10.305,0.794,104.55,14.626,0.778,105.718,7.876,0.729,105.719,7.977,0.728,104.511,13.737,0.763,106.02,10.184,0.771,106.803,19.574,0.729,104.978,19.565,0.75,107.942,8.099,0.777,107.533,12.059,0.771,105.667,7.871,0.715,104.58,11.177,0.738,106.049,11.093,0.747,105.224,9.595,0.746,106.493,11.178,0.781,105.831,9.077,0.732,106.387,4.996,0.788,103.44,15.639,0.694,118.325,7.792,0.896,106.762,9.843,0.755,99.2,19.394,0.618,97.912,10.088,0.628,97.909,11.933,0.571,97.985,11.279,0.65,100.653,13.304,0.694,100.041,8.135,0.668,98.158,10.901,0.654,95.531,12.892,0.647,97.905,12.138,0.638,98.011,12.434,0.647,100.38,7.735,0.625,101.718,6.453,0.676,96.888,7.984,0.673,107.285,7.723,0.791,101.7,7.052,0.707,104.057,13.792,0.787,105.954,7.249,0.771,106.908,8.26,0.778,106.539,8.355,0.829
115.7,9.339,0.861,117.693,28.56,0.842,117.873,11.421,0.798,113.905,13.895,0.788,115.047,7.56,0.822,115.099,6.717,0.927,113.637,13.482,0.786,115.451,11.104,0.807,116.466,19.36,0.828,114.364,19.098,0.802,117.715,7.542,0.805,117.249,11.859,0.863,115.146,7.321,0.833,113.796,10.244,0.77,115.546,9.363,0.815,114.443,8.806,0.812,116.028,9.948,0.807,115.324,8.592,0.86,115.966,4.824,0.821,112.621,15.407,0.794,128.733,7.561,0.868,116.42,9.54,0.827,107.205,18.952,0.657,105.758,9.901,0.686,105.823,11.366,0.676,105.879,11.108,0.702,109.374,13.133,0.733,108.137,7.713,0.667,106.183,10.364,0.717,103.436,12.143,0.699,105.709,11.592,0.623,105.98,11.638,0.697,108.515,7.161,0.689,110.04,5.724,0.691,104.88,7.557,0.682,116.929,7.178,0.855,110.013,6.277,0.668,113.353,13.293,0.759,115.517,6.859,0.81,116.439,7.982,0.801,116.128,8.015,0.866
125.511,8.793,0.823,127.606,29.475,0.837,127.838,16.343,0.815,123.598,13.707,0.804,124.662,5.958,0.821,124.675,6.513,0.792,123.154,12.554,0.794,125.093,12.473,0.783,126.327,18.798,0.835,124.07,18.115,0.82,127.675,7.049,0.828,127.106,10.652,0.804,124.75,7.436,0.807,123.312,10.425,0.826,125.229,8.91,0.826,124.065,8.825,0.815,125.692,8.86,0.826,124.936,7.955,0.789,125.722,4.012,0.84,122.106,14.571,0.796,139.236,6.903,0.9,126.331,8.92,0.829,115.657,17.966,0.704,114.086,9.449,0.71,114.165,10.843,0.707,114.187,10.591,0.706,118.485,13.081,0.764,116.773,7.151,0.751,114.706,10.117,0.707,111.773,12.009,0.72,114.115,11.35,0.748,114.406,11.028,0.687,117.109,6.957,0.737,118.909,5.424,0.712,113.248,6.935,0.71,126.807,6.889,0.825,118.868,6.112,0.732,123.099,12.664,0.825,125.378,6.497,0.814,126.264,7.218,0.797,125.996,7.589,0.837
135.417,8.622,0.846,137.635,26.693,0.857,137.898,20.497,0.831,133.438,13.455,0.836,134.482,6.133,0.837,134.513,6.715,0.862,132.835,12.583,0.804,134.845,13.577,0.845,136.263,18.107,0.821,133.873,18.292,0.793,137.711,6.723,0.822,137.171,10.33,0.897,134.576,7.382,0.834,132.963,8.834,0.796,135.087,9.519,0.833,133.797,7.957,0.841,135.556,8.986,0.812,134.81,7.679,0.828,135.653,3.866,0.824,131.796,14.583,0.813,149.716,6.794,0.869,136.317,8.867,0.804,124.436,17.993,0.726,122.754,8.578,0.725,122.923,10.151,0.736,122.922,10.262,0.719,127.772,12.491,0.768,125.595,6.826,0.736,123.619,9.929,0.8,120.481,11.792,0.768,122.817,10.468,0.716,123.187,10.605,0.731,125.96,6.664,0.744,127.927,5.05,0.783,122.083,6.721,0.755,136.764,6.574,0.819,127.862,6.002,0.81,132.976,12.092,0.84,135.342,6.153,0.849,136.185,6.882,0.852,135.908,7.072,0.785
145.381,8.949,0.791,147.801,23.58,0.843,148.035,21.612,0.812,143.334,13.448,0.803,144.36,6.821,0.823,144.471,6.718,0.889,142.715,13.058,0.845,144.813,15.503,0.834,146.41,18.865,0.823,143.814,17.686,0.85,147.785,7.069,0.826,147.204,10.033,0.842,144.498,6.738,0.827,142.866,9.465,0.79,145.068,9.322,0.829,143.656,9.617,0.851,145.447,9.531,0.801,144.732,8.273,0.836,145.713,3.304,0.827,141.604,14.994,0.834,160.125,6.685,0.882,146.42,8.6,0.807,133.346,18.412,0.754,131.619,9.12,0.759,131.816,10.477,0.741,131.806,10.563,0.752,137.192,12.538,0.789,134.647,7.215,0.782,132.626,10.147,0.731,129.402,12.489,0.794,131.763,10.654,0.765,132.122,10.729,0.76,134.949,6.95,0.728,137.054,5.475,0.73,130.999,6.492,0.74,146.833,6.278,0.821,137.004,6.138,0.775,142.95,12.263,0.841,145.433,6.353,0.859,146.229,6.569,0.821,145.972,7.32,0.796
155.66,9.171,0.91,158.163,21.947,0.874,158.451,19.561,0.904,153.542,13.951,0.855,154.569,6.83,0.883,154.642,6.929,0.882,152.799,12.823,0.845,155.004,16.176,0.897,156.691,19.958,0.893,154.053,18.791,0.822,158.104,7.487,0.884,157.589,9.992,0.844,154.647,7.344,0.849,153.003,9.691,0.875,155.283,10.638,0.854,153.796,9.919,0.868,155.712,10.464,0.89,154.944,8.87,0.865,156.047,4.169,0.849,151.786,15.303,0.911,170.76,7.288,0.869,156.816,9.192,0.89,142.865,19.532,0.844,141.072,9.64,0.811,141.249,10.976,0.777,141.271,11.5,0.849,147.008,13.366,0.813,144.211,7.602,0.846,142.271,10.739,0.862,138.801,13.01,0.79,141.281,11.163,0.827,141.623,11.342,0.811,144.527,7.386,0.807,146.716,5.949,0.841,140.517,7.443,0.8,157.106,7.032,0.855,146.644,6.523,0.827,153.153,12.905,0.906,155.723,6.387,0.899,156.529,7.301,0.878,156.24,7.996,0.89
166.651,9.837,0.91,169.22,21.648,0.936,169.51,17.567,0.97,164.428,13.864,0.92,165.439,7.191,0.937,165.505,6.852,0.902,163.672,13.173,0.963,165.862,16.971,0.891,167.688,20.629,0.908,165.011,19.099,0.926,169.083,7.418,0.9,168.575,10.212,0.949,165.587,7.538,0.978,163.909,9.768,0.914,166.19,11.434,0.991,164.636,9.389,0.936,166.608,11.227,0.936,165.846,8.732,0.955,167.088,3.686,0.958,162.632,15.674,0.927,181.893,7.082,0.952,167.788,9.511,0.915,153.074,20.288,0.885,151.291,9.614,0.914,151.551,11.009,0.891,151.518,11.315,0.927,157.509,13.527,0.905,154.511,7.754,0.891,152.608,11.358,0.888,149.17,13.323,0.91,151.518,11.143,0.867,151.907,11.113,0.878,154.841,7.15,0.928,157.027,6.135,0.873,150.769,7.746,0.909,168.035,7.09,0.906,156.992,6.907,0.883,164.032,12.883,0.937,166.626,6.705,0.923,167.436,6.832,0.916,167.157,7.898,0.952
178.424,9.718,1.062,180.878,16.84,0.999,181.172,15.169,0.996,176.11,13.515,1.018,177.023,7.611,0.985,177.163,6.456,1.003,175.331,11.769,1.076,177.486,18.902,0.951,179.347,20.965,0.99,176.629,18.974,0.97,180.759,7.395,0.992,180.221,9.845,1.012,177.219,7.067,1.035,175.583,10.563,0.992,177.787,11.572,0.997,176.264,7.881,0.977,178.24,9.792,0.987,177.447,9.651,1.005,178.718,4.122,0.992,174.26,15.772,1,193.65,8.329,1.011,179.473,9.597,1.045,164.314,19.859,0.953,162.53,9.72,0.983,162.821,10.513,0.988,162.76,10.976,0.945,168.978,13.083,1.021,165.791,7.53,0.984,163.91,11.463,0.954,160.367,13.424,0.95,162.79,11.083,0.974,163.201,11.319,0.977,166.023,7.019,0.92,168.271,5.931,0.956,161.982,7.242,0.931,179.712,6.71,1.005,168.274,6.985,0.974,175.683,12.369,1.001,178.293,6.557,1.013,179.094,6.694,0.941,178.819,7.478,0.983
190.961,9.508,1.066,193.165,12.435,1.069,193.45,12.62,1.029,188.375,13.256,1.03,189.284,6.993,1.066,189.49,6.607,1.05,187.605,12.367,1.013,189.732,19.49,1.025,191.589,21.031,1.036,188.951,18.54,1.073,193.053,7.259,1.11,192.517,9.804,1.049,189.425,6.682,1.004,187.836,9.91,1.077,190.048,9.464,1.026,188.517,7.227,1.044,190.522,10.611,1.042,189.802,7.727,1.08,190.943,4.487,1.035,186.571,15.54,1.047,205.765,8.155,1.002,191.722,9.393,1.014,176.427,19.404,1.065,174.573,9.516,1.02,174.913,10,1.006,174.896,10.374,1.03,181.209,12.789,1.055,177.887,7.083,1.056,176.02,10.716,1.062,172.485,12.721,1.033,174.929,10.842,1.092,175.238,10.809,0.995,178.17,6.319,1.013,180.435,5.74,1.052,174.116,6.913,1.009,191.981,5.849,0.994,180.344,6.338,0.978,187.999,11.578,1.013,190.554,6.092,1.04,191.39,5.846,1.049,191.144,7.483,1.031
203.451,8.612,1.065,205.619,12.397,1.068,205.916,10.764,1.061,200.899,12.578,1.057,201.869,5.985,1.099,202.011,5.703,1.008,200.191,11.328,1.024,202.367,19.695,1.079,204.089,20.2,1.025,201.473,18.252,1.032,205.537,7.446,1.077,204.963,9.628,1.022,202.011,5.78,1.08,200.408,8.821,1.033,202.652,8.468,1.042,201.141,7.496,1.043,203.104,10.632,1.041,202.399,8.116,1.03,203.49,3.47,1.061,199.091,14.816,1.028,218.107,8.461,1.058,204.219,9.301,1.022,189.189,18.394,1.076,187.412,8.728,1.099,187.736,9.131,1.112,187.767,9.538,1.063,193.853,12.488,1.053,190.612,6.719,1.062,188.803,10.025,1.105,185.313,12.161,1.087,187.676,10.323,1.089,188.098,10.128,1.095,190.94,5.593,1.027,193.121,5.266,1.109,186.902,6.165,1.108,204.489,5.569,1.068,193.076,5.576,1.048,200.545,11.003,1.024,203.028,5.856,0.993,203.933,5.006,1.053,203.665,6.671,1.052
215.762,7.901,1.036,218.132,13.002,1.036,218.413,8.993,1.032,213.468,11.823,1.01,214.468,5.382,1,214.71,6.142,1.104,212.865,10.753,1.026,214.968,20.465,1.027,216.599,19.32,1.039,214.064,17.702,1.07,218.009,6.83,1.017,217.476,9.051,1.032,214.726,5.336,1.09,213.131,9.13,1.047,215.362,8.995,1.083,213.82,6.616,1.076,215.647,9.474,1.034,214.988,7.17,1.038,216.099,3.39,1.054,211.784,14.307,1.089,230.507,8.029,1.055,216.757,9.022,1.04,202.252,16.918,1.133,200.397,7.809,1.076,200.756,8.86,1.108,200.779,8.935,1.08,206.669,11.663,1.056,203.63,5.897,1.104,201.76,9.524,1.087,198.316,11.736,1.101,200.744,9.278,1.095,201.096,9.2,1.047,203.942,4.666,1.074,206.068,4.378,1.08,199.942,5.679,1.087,217.001,4.846,1.042,206.069,5,1.122,213.141,9.922,1.051,215.552,5.068,1.059,216.457,4.784,1.01,216.205,6.407,1.036
228.021,7.422,1.049,230.547,13.621,1.014,230.832,9.588,1.029,225.959,11.484,1.025,227.109,4.027,1.063,227.222,6.125,1.034,225.436,10.871,0.977,227.515,21.31,0.955,229.045,18.305,1.033,226.428,17.65,1.071,230.392,6.916,1.015,229.863,8.671,1.008,227.253,5.294,1.07,225.628,8.359,1.041,227.832,9.762,1.001,226.364,6.081,1.07,228.196,9.285,1.029,227.503,7.418,1.036,228.603,3.192,1.037,224.165,13.872,1.006,242.756,7.858,1.036,229.164,8.345,0.938,215.321,15.708,1.041,213.516,7.422,1.083,213.771,7.937,1.062,213.828,8.29,1.101,219.428,11.358,1.011,216.616,5.555,1.09,214.714,9.159,1.097,211.3,10.96,1.052,213.826,8.657,1.079,214.097,8.786,1.068,216.968,4.121,1.111,219.045,3.991,1.082,213.02,4.956,1.107,229.442,4.397,1.05,219.134,4.505,1.069,225.562,9.419,1.04,228.025,4.497,1.056,228.933,4.049,1.037,228.646,5.593,1.038
240.065,6.864,1.002,242.667,13.147,1.023,243.008,10.302,0.985,238.201,11.314,0.99,239.405,3.915,1.077,239.494,5.262,1.053,237.76,11.42,1.03,239.801,24.175,1.049,241.227,18.058,0.99,238.608,17.418,0.961,242.522,6.597,0.979,242.027,8.829,0.981,239.529,5.234,1.013,237.899,10.833,1.024,240.099,10.331,1.056,238.667,5.763,1.021,240.512,9.621,1.049,239.754,6.842,1.041,240.9,3.468,1.008,236.557,13.351,1.036,254.925,8.709,0.992,241.413,7.551,0.988,228.157,15.061,1.025,226.412,7.222,1.1,226.611,7.157,1.039,226.647,7.645,1.053,231.96,11.369,1.026,229.415,5.106,1.05,227.427,8.674,1.023,224.091,10.472,1.063,226.712,8.016,1.094,226.908,8.196,1.072,229.804,3.9,1.065,231.851,3.442,1.046,225.848,4.525,1.067,241.564,4.33,0.951,231.935,3.883,1.049,237.821,8.739,1.036,240.287,3.912,1.049,241.122,3.692,1.041,240.912,5.421,1.079
252.028,7,1.002,254.638,11.629,0.973,255.064,12.166,1.023,250.261,10.679,1.006,251.501,2.69,1.014,251.577,4.614,0.992,249.855,12.001,0.992,251.885,22.437,1.034,253.199,17.423,0.989,250.731,16.288,0.993,254.588,6.269,0.971,254.13,8.374,0.98,251.639,6.223,1.005,249.911,10.911,0.984,252.187,11.946,1.01,250.783,5.304,1.02,252.561,10.529,0.994,251.793,6.294,0.969,252.878,3.493,0.998,248.534,12.952,0.975,266.89,10.325,1.007,253.443,8.628,0.956,240.516,14.39,0.996,238.865,6.987,1.01,239.09,6.702,1.023,239.143,7.588,1.013,244.083,11.442,0.99,241.842,4.764,1.072,239.815,8.036,0.993,236.572,10.215,0.994,239.112,7.698,1.014,239.355,7.651,1.019,242.17,3.438,1.022,244.203,3.465,1.059,238.283,4.382,0.998,253.634,4.911,1.039,244.327,3.488,1.037,249.886,8.073,1.012,252.347,3.084,0.985,253.169,2.871,1.008,252.949,5.667,1.032
263.908,6.675,0.983,266.527,10.35,0.977,266.879,15.127,0.931,262.162,10.488,1.02,263.394,2.522,1.025,263.487,5.162,0.982,261.774,11.432,0.964,263.804,18.655,0.933,265.074,19.075,0.959,262.708,15.79,1.035,266.567,6.032,1.012,266.043,7.995,0.979,263.46,8.907,1.001,261.782,10.534,1.015,264.052,12.829,0.963,262.638,7.478,0.995,264.48,10.336,0.967,263.66,6.87,0.986,264.729,3.513,0.992,260.423,13.473,1,278.844,10.856,0.997,265.325,9.018,0.998,252.538,13.867,0.95,250.999,7.503,0.994,251.218,6.735,0.995,251.177,7.671,0.98,255.956,11.937,0.986,253.957,4.694,1.013,251.961,8.241,0.997,248.691,10.438,1.009,251.151,7.886,0.982,251.474,7.441,1.021,254.342,3.084,1.121,256.255,3.683,1.005,250.351,4.634,0.992,265.569,5.676,1.009,256.3,3.62,0.987,261.81,7.932,0.982,264.304,3.019,1.017,265.223,2.562,1.013,264.847,5.587,0.972
275.904,7.312,0.985,278.435,8.861,0.946,278.842,18.765,0.974,274.023,10.136,0.976,275.224,3.183,0.958,275.476,13.923,0.998,273.687,11.195,1.008,275.803,18.044,0.955,276.987,22.399,0.966,274.611,16.576,0.964,278.553,6.587,1.005,277.966,7.851,0.971,275.32,12.71,0.973,273.607,11.384,0.925,275.993,14.585,0.999,274.481,7.23,0.991,276.353,10.798,0.983,275.524,6.927,0.968,276.623,3.927,1,272.369,15.034,1.001,290.801,12.312,1.02,277.23,9.872,0.924,264.327,14.301,0.948,262.781,7.836,0.989,262.991,6.669,0.999,262.929,8.463,0.977,267.734,12.452,0.982,265.716,4.958,1.027,263.842,7.949,0.985,260.538,10.633,0.97,262.93,8.452,0.933,263.273,8.016,0.987,266.03,3.564,0.986,268.04,3.802,0.986,262.105,5.736,0.979,277.472,7.887,0.997,268.041,3.471,1.016,273.702,7.272,0.992,276.082,3.043,0.931,277.353,2.195,1.03,276.805,6.272,1.006
287.87,7.918,0.993,290.39,7.546,0.985,290.727,23.27,0.971,285.931,10.003,0.996,287.107,3.538,0.973,287.584,194.663,0.969,285.481,12.15,0.961,287.695,16.611,1.031,288.897,31.561,0.946,286.523,18.225,1.008,290.441,9.944,0.991,289.87,9.113,1.002,287.227,19.168,1.017,285.474,12.526,0.993,287.893,21.938,1.02,286.274,7.545,0.957,288.251,15.131,1.003,287.446,7.253,1.013,288.464,5.06,1.066,284.236,17.117,0.997,302.729,13.81,0.986,289.183,11.962,0.998,276.049,14.137,0.948,274.5,9.296,0.968,274.718,7.005,0.98,274.67,10.207,1.005,279.523,15.016,0.97,277.454,5.927,0.97,275.622,8.128,1.009,272.254,11.554,0.925,274.661,10.196,0.965,275.011,10.14,0.993,277.906,5.76,1.2,279.747,5.504,0.977,273.82,9.688,0.981,289.367,12.384,0.999,279.758,3.583,1.007,285.597,7.109,1.022,287.911,2.689,0.977,289.26,2.291,0.96,288.638,6.703,0.999
299.928,10.302,1.02,302.388,6.77,0.991,302.749,27.933,1.004,297.949,10.062,1.001,299.046,4.81,0.989,299.575,235.289,1.006,297.418,15.084,1.035,299.538,20.957,0.984,300.915,65.104,0.994,298.458,25.581,0.972,302.383,23.841,0.991,301.857,17.284,0.993,299.172,31.038,1.028,297.446,15.475,0.998,299.843,36.012,1.005,298.178,7.135,0.968,300.167,24.172,0.987,299.357,8.36,0.99,300.361,4.645,1.007,296.186,23.306,1.022,314.774,16.659,0.978,301.185,18.419,1.017,287.794,14.139,0.964,286.164,11.329,0.981,286.394,8.598,0.973,286.321,19.725,0.979,291.37,31.099,0.98,289.153,9.314,1.014,287.391,7.802,0.999,283.979,12.877,1.023,286.408,19.271,1.006,286.723,32.349,0.987,289.488,21.039,0.914,291.492,24.043,0.984,285.495,33.959,0.96,301.347,19.674,0.983,291.442,3.766,0.958,297.523,6.562,1.015,299.905,2.414,0.993,301.179,1.56,1.021,300.594,7.691,0.983
312.076,18.055,1.031,314.417,6.025,0.976,314.889,33.404,1.05,309.981,9.896,1.026,311.083,7.567,0.982,311.219,156.308,0.962,309.436,19.959,1.037,311.575,26.525,1.011,313.062,166.11,0.988,310.495,50.576,1.022,314.496,66.982,1.033,313.917,38.864,1.017,311.223,53.767,0.943,309.55,19.014,1.061,311.884,56.603,1.023,310.173,7.888,0.969,312.31,40.892,0.968,311.463,8.134,1.042,312.5,6.08,1.021,308.23,40.369,0.998,326.816,18.61,0.993,313.332,20.493,1.037,299.663,14.312,0.997,297.986,15.75,0.983,298.229,19.129,0.997,298.162,47.833,0.965,303.33,63.908,1.012,300.996,26.611,0.999,299.252,7.88,0.954,295.78,15.629,0.982,298.254,57.479,1.004,298.524,65.878,1.004,301.212,60.259,1.072,303.293,59.882,0.953,297.262,59.814,0.945,313.425,31.578,0.99,303.269,3.806,1.002,309.526,6.212,1.007,312.007,1.74,1.072,313.141,1.358,0.995,312.621,9.095,1.032
324.224,81.091,1.028,326.56,6.033,1.011,326.95,46.305,1.001,322.158,10.441,1.037,323.227,15.348,1.036,322.974,57.387,0.969,321.535,31.651,1.018,323.645,36.273,0.979,325.1,324.539,0.984,322.598,120.198,0.987,326.514,133.038,0.955,326.046,108.014,1.061,323.336,92.687,1.017,321.719,27.338,1.002,323.957,85.441,1.019,322.209,9.47,0.971,324.444,53.294,0.986,323.589,12.742,0.992,324.699,10.003,1.002,320.332,72.289,0.986,338.867,22.07,1.047,325.368,24.22,1.028,311.657,14.745,1.001,309.963,31.029,1.004,310.162,52.205,1.003,310.137,70.159,1.012,315.493,100.522,1.029,312.949,57.684,0.979,311.296,8.581,1.038,307.772,25.326,0.976,310.162,78.121,1.023,310.463,76.681,0.997,313.305,71.48,1.049,315.275,55.46,0.994,309.245,72.475,1.013,325.549,48.469,1.011,315.349,3.999,0.978,321.671,5.983,0.98,324.133,1.916,1.032,325.155,0.816,1.038,324.75,11.01,1.049
336.29,177.015,0.997,338.755,7.874,0.974,339.145,85.733,1.025,334.312,11.57,1.032,335.363,35.83,1.034,335.043,35.603,0.999,333.742,58.84,0.995,335.814,53.832,1.033,336.987,398.221,0.922,334.693,165.774,0.963,338.574,200.491,1.014,338.138,173.264,1.01,335.469,135.135,0.99,333.92,43.211,1.018,336.028,136.443,0.983,334.357,11.698,1.021,336.556,67.996,0.977,335.723,23.606,0.991,336.948,18.635,1.017,332.536,119.263,1.04,350.961,29.146,1.068,337.455,33.633,1.017,323.741,15.7,1.01,322.055,72.417,1.016,322.272,85.108,1.018,322.322,80.175,1.026,327.652,96.834,1.027,325.029,93.692,0.998,323.412,8.879,0.986,319.87,83.625,1.018,322.296,76.939,1.027,322.602,67.429,0.977,325.317,61.008,0.913,327.422,33.195,1.022,321.392,65.692,0.996,337.643,68.534,1.014,327.467,4.907,1.015,333.815,5.738,1.05,336.255,1.638,0.992,337.214,0.644,0.996,336.864,12.884,1.014
348.309,217.917,1.024,350.842,11.307,1.007,351.295,105.474,1.028,346.432,14.757,0.994,347.488,79.182,0.995,347.253,30.635,1.018,345.962,120.089,1.033,347.946,79.364,1,349.153,154.316,1.011,346.738,219.947,0.974,350.584,195.956,1.025,350.192,224.852,0.986,347.57,145.269,0.991,346.122,70.056,1.023,348.113,231.774,1.016,346.515,14.448,1.017,348.586,102.806,0.989,347.845,47.157,1,349.061,38.21,1.038,344.647,165.72,1.002,363.218,53.649,0.996,349.573,55.346,0.999,335.97,16.351,1.014,334.174,114.7,1.007,334.484,110.396,1.038,334.477,59.402,1.05,339.889,46.773,1.044,337.136,98.941,0.983,335.615,9.386,1.002,331.937,116.802,0.978,334.53,55.618,1.013,334.817,50.745,0.985,337.686,43.865,1.089,339.638,30.45,1.004,333.638,52.207,1.042,349.726,83.543,0.989,339.703,5.794,0.993,345.946,5.046,1.032,348.407,1.505,1.027,349.366,0.216,1.047,348.984,15.759,0.982
360.392,208.997,0.996,363.034,19.066,1.026,363.472,112.437,1.042,358.564,22.083,0.971,359.698,145.418,1.03,359.639,31.951,1.05,358.1,242.459,0.989,360.085,117.674,0.941,361.447,77.155,1.036,358.959,170.986,1.003,362.754,141.238,0.988,362.366,169.964,1.027,359.865,138.924,0.982,358.315,108.937,1.021,360.232,288.948,1.002,358.742,24.406,1.016,360.659,172.202,0.981,360.091,113.245,0.996,361.243,68.396,1.018,356.78,143.339,0.964,375.509,113.986,1.075,361.798,100.441,0.988,348.134,17.539,0.978,346.376,79.249,1.004,346.667,58.006,1.023,346.72,42.925,1.019,352.177,44.578,1.08,349.394,45.236,1.058,347.787,10.044,1.01,344.204,64.116,1.018,346.744,42.633,0.977,346.99,41.698,0.985,349.899,35.532,1.043,351.893,31.016,1.014,345.835,40.182,0.996,361.833,77.067,0.961,351.905,7.423,1.032,358.087,5.452,0.975,360.535,1.547,1.011,361.524,-0.13,0.994,361.147,18.297,1.031
372.509,179.017,1.043,375.198,33.811,1.047,375.644,100.626,1.031,370.678,37.324,0.994,371.814,263.995,1.001,371.878,31.988,1.037,370.277,389.335,0.961,372.205,162.677,0.982,373.71,49.259,0.994,371.068,120.593,1.048,374.979,99.709,1.057,374.518,113.207,1.068,371.982,135.224,1.013,370.378,145.682,0.978,372.413,259.427,1.04,371.095,60.893,0.999,372.788,279.474,1.026,372.217,207.019,1.045,373.472,118.659,1.069,368.91,122.576,1.041,387.641,168.169,0.992,373.93,160.304,1.046,360.403,22.437,1.001,358.738,47.463,1.03,358.987,39.176,1.02,358.984,37.799,1.001,364.308,55.4,1.031,361.704,37.136,0.975,359.987,11.388,1.015,356.557,41.674,1.036,359.018,36.377,0.984,359.303,36.51,1.002,362.156,32.545,1.063,364.082,35.195,0.981,358.14,37.004,1.042,373.96,42.669,1.022,364.189,14.001,1.033,370.173,5.591,1.002,372.639,1.823,1.03,373.611,0.162,1.032,373.269,21.276,1.012
384.859,154.155,1.047,387.315,56.271,1.008,387.732,72.733,0.963,382.839,89.165,0.979,383.869,370.534,1.016,384.086,30.963,1.041,382.369,403.398,0.976,384.428,187.422,1.014,386.06,40.563,1.043,383.159,86.466,0.984,387.158,70.384,1.017,386.624,75.427,0.962,384.071,125.624,1.004,382.473,148.111,0.998,384.578,188.392,1.032,383.375,102.047,1.017,384.911,331.911,1.063,384.277,277.136,1.006,385.466,150.146,1.033,381.054,110.998,1.027,399.793,160.317,1.042,385.991,194.063,1.008,372.675,31.668,1.072,370.945,53.946,1.063,371.202,47.03,1.015,371.129,45.27,1.063,376.474,89.045,0.988,373.994,47.813,1.066,372.048,12.743,1.002,368.746,33.125,1.007,371.133,42.508,0.99,371.419,44.049,0.995,374.253,43.163,1.009,376.216,55.206,1.005,370.255,52.247,1.04,386.069,17.184,1.027,376.347,24.274,1.018,382.276,7.083,1.038,384.743,4.547,1.013,385.745,0.184,0.973,385.376,24.162,0.967
397.218,141.956,1.025,399.445,84.742,0.981,399.826,57.177,0.991,394.999,228.413,1.041,396.03,364.429,1.046,396.298,30.562,1.015,394.446,287.122,0.97,396.611,164.243,1.004,398.225,34.579,0.952,395.337,63.904,1.015,399.339,50.974,1.022,398.819,53.491,1.019,396.235,104.25,1.045,394.592,112.231,1.014,396.731,121.899,1.028,395.526,117.71,1.002,397.08,253.378,1.023,396.349,244.325,1.012,397.613,152.98,1.02,393.192,100.717,1.013,411.753,100.64,0.991,398.182,166.199,1.034,384.858,61.341,0.978,383.086,81.881,0.968,383.37,73.495,1.028,383.173,76.615,0.975,388.6,153.638,1.026,386.118,79.311,1.068,384.18,19.133,0.998,380.94,31.587,1.002,383.279,70.018,0.993,383.61,74.978,1.005,386.363,77.338,1.024,388.314,108.257,1.012,382.352,94.733,1.043,398.257,10.367,1.001,388.529,62.831,1.042,394.468,10.829,1.03,396.915,9.456,1.053,397.978,0.108,1.033,397.583,27.37,1.016
409.362,138.787,1.015,411.43,115.476,0.985,411.837,53.533,1.008,407.132,217.347,1.034,408.113,255.48,1.008,408.384,30.244,1.041,406.519,199.667,1.031,408.667,115.741,0.994,410.303,29.656,1.008,407.533,50.849,0.996,411.463,39.843,1.013,410.954,39.956,1.007,408.355,86.451,1.019,406.701,70.473,1.046,408.839,87.975,1.02,407.578,104.819,0.969,409.245,157.853,1.043,408.364,165.786,0.982,409.621,133.61,1.036,405.35,87.438,1.047,423.824,52.703,1.018,410.306,97.997,1.003,397.091,137.854,1.033,395.227,140.324,0.973,395.497,128.843,1.006,395.327,139.859,0.998,400.67,213.737,0.991,398.203,134.198,0.996,396.421,25.807,1.025,393.033,36.276,1.008,395.376,121.894,1.039,395.707,127.71,1.078,398.455,132.512,0.997,400.396,190.634,1.023,394.408,152.168,1,410.404,7.863,0.995,400.706,166.682,1.039,406.713,23.671,1.033,409.185,25.132,1.051,410.07,-0.005,1.01,409.726,30.625,1.024
421.448,139.112,0.992,423.558,145.029,1.02,423.918,60.483,1.035,419.273,215.448,0.989,420.245,165.027,0.999,420.515,31.254,1.019,418.61,154.855,1.017,420.805,75.677,1.028,422.268,25.832,0.987,419.698,43.868,1.008,423.508,34.94,0.988,423.034,33.684,1.013,420.418,90.061,0.992,418.741,45.86,1.039,420.893,74.84,1.014,419.572,100.9,0.995,421.353,107.258,1.022,420.461,124.553,1.006,421.727,115.761,1.006,417.479,78.493,1.056,435.874,30.971,1.018,422.449,50.139,1.069,409.149,293.448,1.032,407.235,205.354,0.962,407.46,190.69,0.958,407.354,203.388,0.991,412.77,198.856,1.032,410.204,182.706,0.956,408.549,34.367,1.009,405.148,51.437,0.971,407.465,170.055,1.002,407.767,166.901,1.012,410.528,170.771,1.033,412.425,234.063,0.985,406.528,183.14,0.983,422.551,7.041,1.013,412.54,343.244,0.867,418.926,62.359,1.017,421.374,63.931,1.016,422.184,0.054,1.056,421.84,33.687,1.021
433.429,142.383,1.009,435.615,163.516,1.026,435.929,75.047,0.988,431.348,197.465,1.009,432.357,132.774,1.027,432.465,32.112,0.989,430.708,121.487,1.026,432.836,51.908,1.005,434.251,24.871,1.01,431.707,41.24,1.011,435.559,31.973,0.97,435.068,31.859,1.018,432.44,95.612,0.99,430.81,32.976,0.975,432.885,72.509,0.977,431.575,111.349,0.997,433.475,87.772,1.034,432.526,106.77,1.025,433.83,109.539,1.031,429.54,80.386,1.022,447.992,20.97,0.989,434.518,29.415,1.007,421.074,436.03,0.943,419.294,211.094,0.999,419.553,193.117,0.987,419.442,199.952,0.986,425.014,105.765,1.02,422.271,167.649,1.02,420.623,58.14,0.924,417.239,78.9,1.017,419.576,163.695,0.994,419.873,146.013,0.977,422.639,149.313,1.053,424.581,193.356,1.022,418.639,143.029,1.011,434.635,6.155,1.048,424.565,434.633,1.076,431.112,119.418,1.022,433.54,135.881,1.02,434.214,0.248,1.014,433.872,37.265,0.95
445.457,140.386,0.988,447.673,155.349,0.974,448.154,84.351,1.033,443.423,205.864,0.981,444.481,116.642,0.977,444.536,33.822,0.981,442.873,105.057,1.018,444.952,38.476,0.995,446.348,24.031,1.033,443.804,38.624,0.99,447.694,29.456,0.986,447.18,28.445,1.032,444.595,76.503,1.039,442.99,24.846,1.004,444.941,71.706,1.023,443.598,124.931,0.951,445.562,83.915,1.003,444.67,91.805,1.008,445.881,109.732,0.989,441.665,90.265,0.999,459.981,15.604,0.973,446.652,19.216,1.019,433.077,396.325,1.037,431.389,130.56,1.018,431.625,110.712,1.003,431.597,111.533,1.05,437.315,37.67,1.03,434.329,87.866,0.929,432.761,94.085,1.01,429.277,119.674,1.033,431.665,99.761,1.041,432.009,78.194,1.028,434.739,80.502,0.987,436.726,100.642,1.036,430.762,64.807,1.039,446.745,5.35,0.978,436.44,327.831,0.921,443.265,224.187,1.016,445.589,256.324,0.957,446.384,0.531,1.001,445.99,41.103,0.962
457.325,124.556,0.937,459.75,119.27,0.993,460.212,83.219,1.009,455.469,227.239,0.977,456.477,99.899,0.969,456.484,34.779,0.989,454.899,96.913,0.951,456.943,31.227,0.993,458.27,23.47,0.979,455.816,34.054,0.979,459.663,24.62,1.008,459.204,24.504,1.039,456.568,51.513,0.998,455.043,19.944,0.981,456.935,72.491,0.97,455.581,120.239,0.939,457.548,87.724,1.028,456.751,74.363,1.049,457.819,107.007,1.027,453.749,98.255,1.041,472.13,12.646,1.011,458.646,13.686,0.989,445.159,226.411,1.037,443.613,47.305,1.056,443.793,35.921,1.05,443.794,38.834,1,449.379,19.193,1.014,446.582,29.188,0.88,444.873,136.667,0.959,441.351,152.986,0.969,443.868,43.116,1.025,444.193,32.227,1.009,446.916,29.789,0.973,448.988,37.232,1.009,442.946,23.548,1.017,458.75,4.102,1.035,448.655,153.775,0.913,455.164,350.641,0.956,457.485,395.702,1,458.375,1.706,1.023,458.009,43.772,1.001
469.419,97.357,0.972,471.918,80.572,1.048,472.411,73.479,1.051,467.479,177.479,0.983,468.637,72.506,1.029,468.659,33.991,1.02,466.972,94.759,1.035,469.006,27.974,0.994,470.435,23.34,1.012,467.862,28.572,1.032,471.771,18.973,1.003,471.337,19.977,1.002,468.674,41.174,1.044,467.175,17.289,1.015,469.125,65.685,1.045,467.724,93.243,1.002,469.613,90.109,0.988,468.849,54.851,0.962,469.938,99.003,1.022,465.747,90.249,0.997,484.373,10.685,1.03,470.752,11.191,0.982,457.251,83.988,1.013,455.703,18.286,0.993,455.98,14.38,1.013,455.918,16.979,0.961,461.201,17.091,0.97,458.77,12.998,1.096,456.865,218.855,0.954,453.428,137.465,1.034,455.979,21.053,0.998,456.271,17.812,1.009,458.994,13.461,0.986,461.047,18.644,0.997,455.062,12.825,1.025,470.847,2.941,1.026,460.975,47.255,1.067,467.026,370.988,0.951,469.498,318.983,1.022,470.473,3.676,1.017,470.074,44.363,1.015
481.732,65.585,1.004,484.175,54.858,1.032,484.651,60.136,1.037,479.705,95.912,0.982,480.832,45.465,1.024,480.898,29.168,1.042,479.164,59.847,0.995,481.202,27.09,0.995,482.707,21.624,0.984,480.073,22.926,0.995,484.006,13.266,0.981,483.52,13.448,0.996,480.824,38.274,1.016,479.354,15.573,1.004,481.417,46.02,1.051,479.894,61.467,1.009,481.841,75.942,1.01,481.056,36.935,1.03,482.212,73.934,0.998,477.886,62.581,1.025,496.583,9.428,1.079,482.925,9.088,0.988,469.519,32.803,1.033,467.815,13.317,1.017,468.043,10.831,0.94,468.01,13.904,1.023,473.162,18.372,0.991,470.904,10.918,1.11,468.828,302.146,1.008,465.468,81.605,0.995,468.069,17.223,1.008,468.349,16.173,1.035,471.138,11.475,1.018,473.258,17.121,1.021,467.092,12.271,0.992,483.064,2.08,0.997,473.406,18.794,1.146,479.17,218.782,0.996,481.646,126.23,0.999,482.711,7.855,1.018,482.236,49.966,0.986
493.976,40.38,1.003,496.331,39.935,1.002,496.827,46.29,1.029,491.895,46.858,1.001,493.03,21.622,1.032,493.095,21.611,1.051,491.412,29.073,1.035,493.436,25.534,1.045,494.975,19.249,1.037,492.285,18.457,1.01,496.197,9.554,0.974,495.744,9.781,1.041,493.021,35.959,1.049,491.536,14.685,0.986,493.599,24.653,1.016,492.144,37.139,1.044,494.075,49.839,1.053,493.218,25.128,1.044,494.486,43.794,1.032,490.055,32.989,0.999,508.737,8.426,1.017,495.135,8.268,0.986,481.727,26.154,1.007,480.03,13.595,1.014,480.262,11.334,1.003,480.259,15.287,1.053,485.345,21.585,1.001,483.005,12.337,1.07,481.036,246.034,1.027,477.749,40.029,1.09,480.242,18.783,1.001,480.538,18.713,1.027,483.358,14.666,1.038,485.424,21.086,1.046,479.324,14.722,1.062,495.223,1.137,0.995,485.474,16.842,0.842,491.348,61.143,1.006,493.855,32.879,1.011,494.886,15.678,0.956,494.455,59.522,0.979
506.238,22.587,1.005,508.502,31.95,0.985,508.974,32.543,1.025,504.086,21.379,0.97,505.139,9.312,0.982,505.28,15.282,0.984,503.562,15.759,1.036,505.609,20.484,0.993,507.114,16.493,0.988,504.506,16.31,1.015,508.424,7.316,1.007,507.929,7.825,1.01,505.251,30.083,0.988,503.694,12.725,1.022,505.821,12.491,1.006,504.389,24.371,1.004,506.235,30.337,1.003,505.408,17.09,0.994,506.739,24.304,1.033,502.304,18.852,1.038,520.906,7.659,1.051,507.343,6.518,1.018,493.946,27.507,1.022,492.16,15.795,1.033,492.449,13.113,1.007,492.381,18.046,1.029,497.592,24.606,1.042,495.185,15.241,1.076,493.307,125.953,1.012,489.944,22.731,1.028,492.408,22.86,1.016,492.647,22.911,0.969,495.469,19.824,1.01,497.532,28.252,1.045,491.515,18.817,1.067,507.419,0.525,1.024,497.674,18.628,0.825,503.593,17.873,0.965,506.095,9.269,0.996,507.17,36.206,1.01,506.685,82.027,1.045
518.351,11.113,1.041,520.587,26.477,0.981,521.101,22.27,0.99,516.19,11.824,1.024,517.309,3.35,1.082,517.409,10.736,1.017,515.662,11.878,1.019,517.847,11.82,1.05,519.276,12.9,1.05,516.575,14.116,0.998,520.571,5.214,1.02,520.042,5.516,1.014,517.427,22.725,1.082,515.793,10.471,1.03,517.915,4.558,1.007,516.462,18.285,1.032,518.457,19.708,1.033,517.564,12.172,1.013,518.861,12.324,1.032,514.482,12,1.003,533.041,6.651,1.017,519.514,5.682,1.019,506.074,29.427,1.016,504.307,19.076,0.965,504.64,15.32,1.002,504.499,20.506,1.007,509.813,25.296,1.02,507.319,17.551,1.051,505.679,49.56,1.038,502.143,18.474,1.01,504.599,28.141,1.011,504.874,28.01,0.991,507.635,25.457,1.04,509.659,36.495,0.979,503.706,21.777,1.036,519.536,-0.265,1.07,509.656,22.441,0.965,515.741,7.102,0.973,518.204,2.877,1.012,519.308,66.496,1.023,518.735,131.294,1.004
530.495,6.695,1.005,532.768,22.713,1.017,533.157,14.904,1.004,528.441,8.271,1.012,529.472,0.986,1.006,529.574,7.539,0.953,527.935,9.935,1.083,529.967,8.574,1.034,531.409,11.034,0.959,528.776,12.341,0.999,532.741,3.437,1.011,532.176,4.071,0.984,529.6,15.532,1.075,527.995,9.933,1.028,530.06,2.549,1.011,528.717,14.944,1.038,530.561,15.012,1.003,529.764,10.124,1.052,530.971,7.445,1.005,526.583,7.353,0.988,545.1,6.276,0.977,531.66,5.789,0.975,518.157,41.38,1.068,516.418,20.736,1.016,516.72,16.523,0.992,516.544,21.055,1.012,522.086,22.781,1.026,519.461,17.504,1.035,517.925,33.376,1.055,514.292,18.68,1.004,516.642,31.53,1.007,516.978,30.979,1.015,519.75,28.718,1.007,521.817,40.058,0.993,515.749,22.117,1.038,531.744,-0.814,1.004,521.7,39.33,1.011,527.985,4.548,1.011,530.405,1.283,0.958,531.472,157.409,1.016,530.92,221.135,0.999
542.605,4.779,1.03,544.917,18.71,1.022,545.267,8.969,0.985,540.59,7.21,0.991,541.598,-0.376,1.005,541.727,5.427,1.002,540.031,9.01,1.011,542.073,8.429,1.014,543.598,9.054,1.04,540.924,10.013,1.044,544.896,1.608,1.025,544.341,2.477,0.997,541.68,8.668,1.015,540.092,9.997,1.025,542.181,1.597,1.021,540.84,13.364,1.035,542.629,12.487,0.939,541.833,9.47,1.044,543.044,4.81,0.981,538.725,5.934,1.027,557.271,5.693,1.018,543.69,4.62,0.984,530.353,69.775,1.017,528.64,18.759,1.018,528.917,14.666,0.967,528.775,18.093,0.997,534.427,18.26,1.079,531.667,14.933,1.023,530.146,40.983,1.041,526.465,18.7,1.041,528.894,29.223,1.016,529.211,25.704,1.008,532.024,22.962,1.073,533.959,31.573,1.032,527.911,16.662,1.025,543.903,-1.029,1.006,533.897,68.564,1.036,540.098,3.485,1.036,542.526,1.331,0.997,543.563,186.451,1.002,543.05,365.902,1.001
554.727,3.514,1.011,557.082,15.256,1.028,557.433,4.033,1.018,552.795,6.479,1.016,553.733,-1.379,0.993,553.893,3.844,1.008,552.193,9.199,1.044,554.217,8.861,1.026,555.797,8.125,0.995,553.063,8.476,1.022,557.013,0.266,1.029,556.497,0.24,1.053,553.847,5.35,0.998,552.257,8.575,1.032,554.333,2.348,1.012,552.982,10.948,1.002,554.82,10.239,1.043,554.032,7.193,1.009,555.135,3.145,1.028,550.873,5.548,1.001,569.426,4.72,1.031,555.776,3.618,1.035,542.513,87.265,0.999,540.805,14.422,0.965,541.079,11.07,1.018,540.959,13.107,0.995,546.671,14.312,1.05,543.796,11.042,1.038,542.265,48.94,1.01,538.597,17.046,1.004,541.001,20.004,0.992,541.328,16.628,0.986,544.131,13.197,1.024,546.147,18.465,1.029,540.043,9.929,0.992,556.075,-1.606,1.025,546.103,67.604,1.037,552.248,3.281,1.005,554.668,1.304,1.021,555.659,186.372,1.008,555.18,440.229,0.973
566.931,2.822,1.041,569.132,11.388,0.991,569.459,0.62,0.957,564.867,6.129,0.99,565.934,-2.774,1.051,566.027,2.092,1.003,564.27,7.913,1.018,566.307,8.145,1.028,567.8,7.268,0.975,565.238,7.568,0.989,569.116,-0.7,0.967,568.613,-0.949,0.979,565.987,2.927,0.966,564.401,7.879,0.992,566.488,1.752,1.006,565.207,9.273,0.978,566.989,9.521,0.995,566.211,6.197,0.999,567.192,1.36,1.008,563.081,4.955,1.035,581.373,3.949,0.99,567.862,2.525,1.004,554.631,55.198,0.983,552.943,10.255,0.995,553.2,7.64,1.009,553.1,9.16,0.985,558.831,11.89,1.038,555.942,7.99,1.001,554.331,41.595,1.024,550.744,15.069,0.984,553.226,12.787,1.067,553.461,10.238,0.985,556.306,5.859,1.016,558.16,10.346,0.93,552.216,5.636,1.012,568.257,-1.735,1.009,558.339,33.602,1.032,564.362,3.226,0.993,566.842,1.388,1.001,567.707,190.137,1.011,567.356,106.919,0.959
579.018,2.068,1.027,581.124,8.083,0.975,581.387,-1.115,1.016,576.774,6,0.997,577.979,-3.025,1.026,577.968,1.473,0.998,576.227,8.532,0.963,578.316,7.178,1.004,579.687,6.625,0.963,577.254,7.233,1.01,581.102,-1.142,0.994,580.672,-1.58,1.005,578.111,2.038,1.026,576.361,7.111,0.993,578.555,0.652,1.05,577.129,8.226,0.944,579.014,7.975,0.952,578.21,4.793,1.054,579.253,-0.034,1.045,575.116,4.435,0.979,593.332,3.778,0.973,579.825,1.888,0.993,566.869,29.301,1.007,565.173,7.333,1.051,565.45,5.597,1.019,565.362,6.872,0.997,570.933,10.468,1.075,568.162,5.863,0.989,566.482,30.017,1.025,562.99,12.701,1.028,565.449,9.092,0.995,565.731,7.347,1.041,568.457,2.391,0.966,570.386,6.229,0.944,564.405,3.384,0.981,580.25,-1.924,0.981,570.57,15.16,1.032,576.41,3.241,0.981,578.87,1.508,0.981,579.656,179.936,0.953,579.56,22.267,0.987
590.97,1.256,1.025,592.984,5.005,1.003,593.371,-2.284,1.026,588.749,5.645,1.006,590.008,-4.528,0.997,589.916,1.691,0.96,588.176,8.106,0.982,590.31,7.654,0.99,591.678,6.31,0.985,589.275,6.171,1.02,593.163,-1.2,0.962,592.63,-2.12,0.996,590.123,2.441,1.049,588.372,6.195,1.035,590.551,-0.611,1.012,589.092,6.704,0.995,591.053,7.019,1.01,590.202,4.285,1.037,591.144,-1.465,1.008,587.142,4.033,1.002,605.3,3.375,0.995,591.819,1.104,0.987,579.07,19.428,0.997,577.301,6.074,1.015,577.617,4.044,1.048,577.525,5.365,1.039,582.956,9.709,1.012,580.318,4.386,0.989,578.588,20.787,1.008,575.134,11.113,1.01,577.617,7.514,1.01,577.856,5.692,1.036,580.601,0.708,1.01,582.405,4.866,1.033,576.616,2.087,1.032,592.228,-1.866,0.966,582.764,8.552,1.027,588.445,3.415,1.013,590.849,1.71,0.996,591.652,137.059,0.985,591.602,10.797,1.016
602.866,0.752,0.965,605.149,2.914,1.023,605.435,-3.286,1.007,600.88,5.494,1.038,602.068,-5.085,1.013,601.988,1.595,0.994,600.234,7.28,1.001,602.399,7.15,1.027,603.833,6.555,1.037,601.342,5.981,1.04,605.242,-1.93,0.963,604.695,-2.098,1.024,602.074,0.034,1.036,600.429,5.002,0.966,602.563,-0.152,0.986,601.146,4.845,0.986,603.073,6.724,1.019,602.287,2.966,1.015,603.208,-2.694,1.012,599.153,3.402,1.034,617.232,3.408,0.959,603.909,0.32,1.034,591.268,15.154,0.993,589.484,4.715,1.009,589.784,3.308,0.992,589.71,4.667,0.991,595.006,8.923,1.023,592.515,3.791,1.008,590.651,15.852,0.978,587.301,10.259,1.014,589.722,6.266,0.942,590.033,4.724,1.001,592.819,-0.261,1.012,594.422,3.926,0.987,588.799,1.405,1.029,604.275,-2.622,1.031,594.845,5.656,0.988,600.501,3.717,0.979,602.816,1.868,1.009,603.757,75.693,0.999,603.453,7.084,1.011
614.842,0.185,0.981,617.229,1.035,0.987,617.433,-3.701,0.976,613.015,5.012,1.009,613.922,-4.109,0.975,613.987,0.947,1.018,612.202,7.278,0.97,614.394,5.274,0.984,615.917,5.491,1.018,613.431,5.235,1.01,617.187,-2.308,0.993,616.649,-2.179,1,614.005,-0.592,1.001,612.508,4.418,1.019,614.546,-0.267,1.025,613.244,3.002,0.978,615.015,5.71,0.978,614.261,1.744,1.049,615.161,-2.665,0.945,611.208,3.136,1.007,629.327,2.934,1.022,615.971,0.479,0.944,603.478,13.699,0.989,601.687,4.07,0.98,601.969,2.699,1.014,601.912,3.644,1.007,607.089,8.804,1.053,604.684,3.249,1.021,602.764,13.392,1.003,599.479,9.492,1.041,601.909,5.269,1.03,602.241,3.765,1.02,604.997,-0.984,1.019,606.798,3.005,1.07,600.929,0.767,1.025,616.197,-2.679,0.975,607.029,4.406,0.992,612.497,3.995,1.021,614.836,1.577,1.001,615.775,32.052,0.976,615.258,5.454,0.969
626.909,0.422,1.01,629.222,0.003,1.015,629.479,-4.361,0.98,624.955,4.906,0.942,625.922,-3.713,1.001,626.001,0.655,0.988,624.353,8.15,1.016,626.397,6.279,0.985,627.929,5.354,1.009,625.436,5.572,0.957,629.121,-3.031,0.959,628.678,-2.345,1.023,626.06,-1.199,0.993,624.502,4.276,0.984,626.581,-0.659,1.024,625.391,2.422,1.043,626.966,7.094,0.986,626.301,0.933,1.005,627.204,-3.974,1.02,623.181,2.305,0.991,641.445,3.416,1.036,627.992,0.383,0.991,615.524,12.722,1.012,613.79,3.701,1.031,614,1.801,1.013,614.016,2.851,0.996,619.013,8.245,0.998,616.707,2.738,0.976,614.728,12.007,0.976,611.582,8.804,1.039,613.889,4.567,0.972,614.291,2.873,1.021,617.098,-2.019,1.009,619.076,2.085,1.031,612.973,-0.122,0.947,628.19,-2.895,0.995,619.021,3.773,0.991,624.474,3.436,1.022,626.965,1.756,0.994,627.696,15.563,0.99,627.405,4.216,1.002
639.016,0.459,1.019,641.211,-1.201,1.016,641.495,-4.394,0.982,636.887,5.128,0.989,637.936,-4.087,0.991,637.998,-0.387,1.015,636.367,9.421,0.982,638.384,6.743,0.961,639.878,5.134,1.009,637.301,4.988,0.985,641.167,-2.454,0.992,640.67,-2.726,0.977,638.14,-0.942,1.015,636.442,2.78,1.019,638.63,-0.044,0.992,637.308,0.328,0.976,639.007,5.435,1.033,638.314,1.161,1.014,639.275,-3.283,0.98,635.105,2.682,0.976,653.61,2.966,1.035,640.024,0.5,1.003,627.491,12.158,0.977,625.848,3.353,1,626.023,1.579,0.97,626.072,2.261,0.995,630.99,8.195,0.976,628.723,2.506,0.968,626.816,10.88,1.028,623.58,8.511,1.029,625.872,4.05,0.963,626.245,1.958,0.972,629.051,-2.475,0.985,631.199,1.447,0.975,625.141,-0.814,1.03,640.226,-2.672,1.024,631.059,3.298,1.016,636.483,3.553,1.005,638.96,1.384,0.98,639.675,9.951,1,639.604,4.026,1.012
651.077,0.404,0.972,653.264,-2.193,1.01,653.648,-5.166,1.015,648.975,4.919,0.989,650.048,-3.831,1.035,650.073,-0.394,0.968,648.473,8.668,1.018,650.448,7.14,0.967,651.962,5.787,0.996,649.28,5.565,1.006,653.289,-3.294,1.03,652.719,-2.769,0.98,650.167,-2.298,0.986,648.521,2.546,1.009,650.735,-0.019,1.016,649.279,-0.274,0.985,651.139,5.458,1.032,650.301,1.081,0.978,651.44,-3.239,1.006,647.135,1.984,0.956,665.775,3.173,1.031,652.183,0.68,1.028,639.502,11.563,1.027,637.817,2.77,1.054,638.026,1.004,1.004,638.032,1.877,0.993,643.054,7.689,1.021,640.731,2.3,1.003,638.758,9.567,0.995,635.535,7.976,1.016,637.836,3.686,1.016,638.114,1.555,0.982,640.98,-3.054,1.013,643.135,0.606,0.962,637.145,-1.3,0.969,652.323,-3.283,0.966,643.06,2.527,1.052,648.66,2.876,1.012,651.12,1.2,0.999,651.912,7.586,0.994,651.7,3.415,0.968
663.181,0.539,1.035,665.424,-2.674,1.013,665.879,-5.118,1.04,661.106,4.619,1.063,662.113,-4.942,1.001,662.248,-0.629,1.027,660.502,7.232,1.005,662.649,7.444,1.047,664.072,5.249,1.013,661.369,4.578,1.028,665.424,-2.943,0.992,664.845,-3.316,1.002,662.301,-2.403,0.998,660.561,1.889,1.012,662.691,-1.37,0.965,661.338,-0.656,1.008,663.23,5.201,1.034,662.354,0.231,0.994,663.618,-3.199,0.975,659.229,2.424,1.019,677.938,2.989,1.039,664.341,0.078,1.012,651.541,10.567,1.002,649.855,2.321,0.995,650.019,0.637,1.029,649.95,1.784,0.977,655.078,7.282,0.988,652.736,1.935,1.055,650.817,8.781,1.034,647.541,7.301,1,649.919,3.088,0.971,650.263,0.781,0.999,653.105,-3.333,1.024,654.999,0.376,1.018,649.214,-1.701,1.013,664.5,-3.096,1.032,654.986,2.135,0.999,660.833,2.263,1.006,663.182,0.684,1.02,664.056,5.916,1.021,663.85,3.518,1.049
675.299,0.312,1.014,677.637,-3.175,1.009,678.015,-5.567,1.016,673.342,4.747,1.049,674.293,-4.846,1,674.475,-0.119,1.036,672.753,7.077,0.992,674.805,5.932,1.002,676.305,5.364,1.047,673.592,4.32,0.99,677.584,-3.46,0.996,677.037,-3.016,1.019,674.489,-1.984,1.035,672.765,1.969,1.022,674.931,-1.329,1.007,673.451,-1.944,1.022,675.384,4.79,1.013,674.504,-1.114,0.969,675.889,-2.939,1.03,671.346,2.027,1.056,690.18,2.993,1.015,676.573,0.346,1.036,663.609,10.505,1.014,661.882,1.774,1.007,661.932,0.337,0.971,661.858,1.388,0.963,667.188,7.449,0.989,664.771,1.48,0.989,662.859,7.819,1.026,659.606,6.722,1.045,662.285,2.697,1.349,662.434,0.942,1.016,665.14,-3.994,0.976,666.977,-0.045,0.992,661.194,-1.683,1.033,676.585,-3.299,0.981,667.028,2.1,1.01,673.062,2.323,1.028,675.349,0.312,0.991,676.289,4.84,1.001,675.948,3.365,0.972
687.571,0.439,0.999,689.917,-3.975,1.018,690.256,-5.637,1.053,685.625,4.887,1.049,686.595,-4.544,1.005,686.736,-0.543,1.05,685.102,7.71,1.022,687.064,6.117,1.036,688.518,5.115,1.03,685.801,4.765,0.992,689.77,-3.546,1.012,689.225,-3.035,1.044,686.673,-2.528,1.069,685.008,1.777,1.049,687.189,-1.455,1.007,685.719,-1.349,0.96,687.694,5.886,1.039,686.712,-0.792,1.024,688.059,-3.494,0.974,683.517,1.728,1.014,702.338,2.595,1.004,688.829,-0.131,1.023,675.63,10.169,1.077,673.83,1.247,1.019,673.981,0.386,1.025,673.985,1.066,1.03,679.351,7.321,1.017,676.812,1.259,0.954,674.977,7.056,1.007,671.636,6.334,0.989,673.995,2.567,0.902,674.444,0.458,1.008,677.113,-4.026,1.025,679.059,-0.062,0.983,673.169,-1.986,1.02,688.836,-3.368,1.012,679.12,1.443,1.028,685.308,1.548,1.071,687.578,-0.392,1.018,688.556,4.027,1.013,688.255,3.186,1.03
699.798,-0.08,1.018,702.105,-4.16,1.011,702.409,-5.986,1.02,697.774,4.491,1.007,698.75,-4.383,1.042,698.905,-1.675,1.041,697.275,7.142,1.014,699.218,6.303,0.99,700.695,4.963,1.013,697.928,4.695,0.965,701.907,-3.514,1.047,701.445,-3.334,1.018,698.799,-2.65,0.975,697.087,0.935,1.035,699.324,-1.374,1.009,697.847,-1.382,0.989,699.846,5.723,1.006,698.853,-1.241,0.982,700.204,-3.14,0.98,695.768,1.253,1.004,714.537,2.419,0.99,700.964,0.27,1.008,687.763,10.011,1.039,685.864,0.941,0.97,686.098,0.17,1.043,686.165,0.865,1.004,691.605,7.366,1.029,688.89,1.068,0.98,687.248,6.636,1.011,683.701,6.069,1.036,686.131,2.602,0.959,686.404,-0.005,0.966,689.146,-4.29,1.018,691.227,0.004,0.985,685.294,-2.12,1.022,700.939,-3.391,0.952,691.339,1.293,1.003,697.512,1.002,0.998,699.842,-0.56,1.022,700.704,2.96,1.041,700.426,3.188,0.967
711.946,-0.237,1.023,714.23,-4.827,1.004,714.649,-6.149,1.036,709.955,4.815,1.023,710.928,-4.961,0.98,711.091,-1.493,0.984,709.538,6.881,1.022,711.413,6.209,1.037,712.895,5.335,1.028,710.185,3.396,1.037,714.065,-3.462,1.025,713.611,-3.257,1.019,711.021,-3.151,1.018,709.275,1.697,0.968,711.544,-0.081,1.026,710.056,-1.762,1.038,712.022,5.836,1.008,711.067,-1.165,0.999,712.405,-3.374,0.997,708.022,1.725,1.011,726.729,2.94,1.034,713.119,0.372,1.047,699.911,10.256,1.018,697.919,1.132,0.999,698.155,-0.079,1,698.23,0.93,1.026,703.812,7.411,1.019,700.923,1.022,0.979,699.458,6.542,1.012,695.725,5.91,0.96,698.463,2.569,1.198,698.474,-0.145,1.01,701.175,-4.085,1.007,703.323,-0.467,0.998,697.255,-2.051,1.027,713.133,-3.894,1.018,703.513,1.206,1.035,709.797,0.868,1.017,712.067,-0.684,0.976,712.815,2.292,1.009,712.631,3.243,0.996
724.093,-0.275,1.007,726.431,-4.844,1.073,726.804,-6.202,1.031,721.987,4.689,0.99,723.142,-3.849,1.041,723.26,-1.172,1.073,721.721,7.223,1.004,723.666,6.202,1.06,725.097,5.087,1.069,722.35,3.922,1.011,726.258,-3.144,1.067,725.814,-3.134,1.056,723.251,-3.113,1.083,721.458,3.501,0.995,723.757,0.855,1.041,722.284,-1.386,1.007,724.211,6.811,1.015,723.317,-1.277,1.067,724.583,-3.346,1.013,720.179,1.573,1.034,738.729,2.855,0.976,725.265,0.834,1.045,712.055,10.441,1.065,710.086,0.973,1.008,710.314,-0.141,0.969,710.246,0.639,1.014,716.006,6.98,1.039,713.136,0.653,1.064,711.671,6.456,1.031,707.789,5.835,0.992,710.504,2.538,0.983,710.624,0.071,1.016,713.375,-4.412,1.017,715.497,-0.494,1.009,709.283,-2.099,0.943,725.343,-3.721,1.002,715.707,1.441,1.011,721.96,0.764,1.076,724.219,-0.819,0.97,725.016,1.603,1.077,724.812,3.278,0.994
736.279,-0.087,0.995,738.609,-5.315,1.029,738.949,-6.475,0.982,734.23,4.771,1.008,735.338,-4.145,1.025,735.289,-1.192,0.994,733.924,7.425,1.005,735.834,6.314,1.011,737.233,5.36,0.972,734.532,3.497,1.016,738.439,-3.408,1.01,737.976,-3.313,1.026,735.392,-2.531,1.011,733.646,2.632,0.994,735.923,-1.614,1.025,734.507,-0.602,1.032,736.213,5.548,1.015,735.492,-1.942,1.059,736.759,-3.408,1.048,732.348,1.212,1.021,750.938,0,1.011,737.412,0.831,1.009,724.267,9.886,1.043,722.192,0.764,0.999,722.524,-0.194,1.005,722.403,0.795,1.068,728.269,7.138,1.044,725.295,0.382,1.09,723.851,6.386,1.03,719.925,5.632,1.023,722.506,2.202,0.98,722.778,0.032,1.051,725.612,-4.78,1.029,727.702,-0.236,1.023,721.401,-2.256,0.987,737.451,-3.499,0.979,727.927,1.689,1.016,734.13,0.37,1.003,736.401,-0.918,1.031,737.182,1.517,1.026,736.976,2.868,1.006
748.438,0,1.013,750.827,0,0.985,751.154,0,1.018,746.432,0,1.033,747.51,0,1.032,747.348,0,0.95,746.185,0,1.032,748.073,0,1.005,749.398,0,0.987,746.681,0,1.009,750.635,0,1.027,750.179,0,1.028,747.628,0,1.034,745.82,0,1.001,748.043,0,0.987,746.705,0,1.009,748.436,0,1.012,747.666,0,0.997,748.902,0,0.987,744.471,0,0.998,,,,749.515,0,0.97,736.541,9.968,1.019,734.462,0.513,1.059,734.758,-0.181,1.017,734.631,0.602,1.035,740.422,7.125,1.04,737.479,0.545,1.038,736.085,6.264,1.007,732.216,5.733,1.019,734.747,2.054,1.038,735.021,-0.048,1.022,737.86,-4.718,1.048,739.908,-0.202,1.047,733.707,-2.371,1.004,749.602,0,1.059,740.12,1.275,1.003,746.298,0,1.02,748.596,0,0.997,749.329,0,1.017,749.143,0,1.006
,,,,,,,,,,,,,,,,,,,,,,,,,,,,,,,,,,,,,,,,,,,,,,,,,,,,,,,,,,,,,,,,,,748.697,0,0.961,746.602,0,0.982,746.925,0,0.991,747.012,0,1.047,752.61,0,1.045,749.681,0,0.99,748.28,0,1.003,744.375,0,1.014,746.881,0,1.029,747.278,0,1.057,750.027,0,1.013,752.086,0,0.999,745.95,0,1.046,,,,752.371,0,1.028,,,,,,,,,,,,
,,,,,,,,,,,,,,,,,,,,,,,,,,,,,,,,,,,,,,,,,,,,,,,,,,,,,,,,,,,,,,,,,,,,,,,,,,,,,,,,,,,,,,,754.092,0,1.058,,,,,,,,,,,,,,,,,,,,,,,,,,,,,,,,,